  STEP   TOTAL TIME             LOCATION OF OBSERVATION POINTS (K,I,J)
                      1   9  17
     1    0.0000       1.10000E-02
     2    20.000       1.30303E-02
     3    30.000       1.41031E-02
     4    40.000       1.52046E-02
     5    50.000       1.63348E-02
     6    60.000       1.74937E-02
     7    70.000       1.86812E-02
     8    80.000       1.98972E-02
     9    148.42       2.84117E-02
    10    216.84       3.82547E-02
    11    285.26       4.93978E-02
    12    298.93       5.18757E-02
     1    367.35       6.45133E-02
     2    435.77       7.83349E-02
     3    504.18       9.32707E-02
     4    572.60       0.10924    
     5    627.75       0.12289    
     1    696.17       0.14051    
     2    764.59       0.15892    
     3    833.01       0.17803    
     4    900.00       0.19734    
     5    968.42       0.21756    
     6    989.46       0.22391    
     1    1000.0       0.22711    
     2    1068.4       0.24792    
     3    1100.0       0.25766    
     4    1168.4       0.27887    
     5    1200.0       0.28875    
     6    1268.4       0.31019    
     7    1300.0       0.32013    
     8    1368.4       0.34165    
     9    1387.3       0.34759    
     1    1400.0       0.35156    
     2    1468.4       0.37302    
     3    1500.0       0.38286    
     4    1568.4       0.40412    
     5    1600.0       0.41384    
     6    1668.4       0.43478    
     7    1736.8       0.45546    
     8    1805.3       0.47583    
     9    1825.0       0.48160    
